File: test-G2sc-size-strain/xrd_LaB6_660c_std_brac2_20250724-194924_70c707_primary-1_mean_tth.chi
# chi_2theta chi_I
0.647266 30.6552
0.658416 29.0562
0.669566 29.4607
0.680716 26.1085
0.691866 24.6396
0.703017 25.0292
0.714167 25.9758
0.725317 26.9669
0.736467 27.4941
0.747618 27.9483
0.758768 28.5372
0.769918 28.6878
0.781068 28.7717
0.792218 29.0008
0.803369 29.3337
0.814519 29.4296
0.825669 29.3176
0.836819 29.2478
0.84797 29.4412
0.85912 29.4105
0.87027 29.5351
0.88142 29.5914
0.89257 29.5445
0.903721 29.6485
0.914871 29.6944
0.926021 29.6416
0.937171 29.7901
0.948322 29.8602
0.959472 29.8362
0.970622 29.8299
0.981772 29.9762
0.992923 29.7728
1.00407 29.8948
1.01522 29.9037
1.02637 29.8412
1.03752 29.986
1.04867 29.9306
1.05982 29.8628
1.07097 29.9311
1.08212 30.0115
1.09327 29.895
1.10442 29.977
1.11557 29.8858
1.12673 29.9928
1.13788 29.9043
1.14903 30.103
1.16018 30.0227
1.17133 30.1635
1.18248 30.0324
1.19363 30.0568
1.20478 30.0095
1.21593 30.2256
1.22708 30.3422
1.23823 30.2467
1.24938 30.1331
1.26053 30.1658
1.27168 30.2143
1.28283 30.1381
1.29398 30.2657
1.30513 30.2093
1.31628 30.1738
1.32743 30.1245
1.33858 30.147
1.34973 30.2371
1.36088 30.2122
1.37203 30.2286
1.38318 30.1635
1.39433 30.3333
1.40548 30.3332
1.41663 30.3003
1.42778 30.3838
1.43893 30.2493
1.45008 30.4073
1.46123 30.3224
1.47238 30.2809
1.48353 30.3013
1.49468 30.4006
1.50583 30.3747
1.51698 30.5152
1.52813 30.4824
1.53928 30.6096
1.55043 30.6925
1.56158 30.7393
1.57273 30.7885
1.58388 30.8211
1.59503 30.7925
1.60618 30.9576
1.61734 30.9497
1.62849 30.9659
1.63964 30.9746
1.65079 31.0456
1.66194 31.1144
1.67309 31.1512
1.68424 31.3231
1.69539 31.2654
1.70654 31.4528
1.71769 31.4319
1.72884 31.4444
1.73999 31.4983
1.75114 31.5617
1.76229 31.6521
1.77344 31.7083
1.78459 31.786
1.79574 31.7306
1.80689 31.7832
1.81804 31.8577
1.82919 31.9053
1.84034 31.9931
1.85149 32.1234
1.86264 32.2219
1.87379 32.2919
1.88494 32.3379
1.89609 32.4447
1.90724 32.589
1.91839 32.5776
1.92954 32.7221
1.94069 32.702
1.95184 32.7601
1.96299 32.9266
1.97414 33.0311
1.98529 32.9949
1.99644 33.0593
2.00759 33.0035
2.01874 33.1619
2.02989 33.2237
2.04104 33.3283
2.05219 33.5001
2.06334 33.4786
2.07449 33.7268
2.08564 33.7876
2.09679 33.8789
2.10794 33.927
2.1191 34.015
2.13025 34.3819
2.1414 34.586
2.15255 34.9622
2.1637 35.3264
2.17485 35.8323
2.186 36.1965
2.19715 36.8849
2.2083 37.99
2.21945 39.4469
2.2306 42.2695
2.24175 48.7392
2.2529 68.5651
2.26405 146.814
2.2752 482.759
2.28635 1285.01
2.2975 1531.1
2.30865 740.967
2.3198 220.773
2.33095 84.4744
2.3421 52.6941
2.35325 43.2503
2.3644 39.5459
2.37555 37.6
2.3867 36.3013
2.39785 35.3209
2.409 34.5817
2.42015 33.9929
2.4313 33.508
2.44245 33.1495
2.4536 32.7919
2.46475 32.4277
2.4759 32.1543
2.48705 31.8513
2.4982 31.5698
2.50935 31.526
2.5205 31.369
2.53165 31.2226
2.5428 31.0478
2.55395 30.9037
2.5651 30.898
2.57625 30.7597
2.5874 30.6283
2.59855 30.614
2.6097 30.5775
2.62086 30.564
2.63201 30.3293
2.64316 30.3461
2.65431 30.3281
2.66546 30.2519
2.67661 30.267
2.68776 30.1966
2.69891 30.1222
2.71006 30.1557
2.72121 30.1571
2.73236 30.2564
2.74351 30.2232
2.75466 30.2004
2.76581 30.1549
2.77696 30.1636
2.78811 30.1992
2.79926 30.0977
2.81041 30.1775
2.82156 30.142
2.83271 30.2719
2.84386 30.2642
2.85501 30.3074
2.86616 30.2653
2.87731 30.3537
2.88846 30.3098
2.89961 30.3997
2.91076 30.4022
2.92191 30.39
2.93306 30.5039
2.94421 30.4257
2.95536 30.5734
2.96651 30.6943
2.97766 30.8561
2.98881 30.8501
2.99996 31.0666
3.01111 31.2909
3.02226 31.3787
3.03341 31.689
3.04456 32.0505
3.05571 32.3026
3.06686 32.6762
3.07801 33.0764
3.08916 33.5942
3.10031 34.1856
3.11147 34.9729
3.12262 35.8998
3.13377 36.859
3.14492 38.0957
3.15607 39.7945
3.16722 42.2826
3.17837 46.6365
3.18952 56.0377
3.20067 82.5111
3.21182 182.854
3.22297 616.368
3.23412 1874.46
3.24527 2819.81
3.25642 1692.07
3.26757 520.815
3.27872 159.569
3.28987 76.6544
3.30102 53.9653
3.31217 45.6019
3.32332 41.5361
3.33447 39.122
3.34562 37.394
3.35677 36.1015
3.36792 35.0004
3.37907 33.9453
3.39022 33.1869
3.40137 32.5595
3.41252 32.0149
3.42367 31.4482
3.43482 31.0188
3.44597 30.6368
3.45712 29.9217
3.46827 30.0275
3.47942 29.7241
3.49057 29.4905
3.50172 29.3982
3.51287 29.2785
3.52402 29.1534
3.53517 28.9199
3.54632 28.7853
3.55747 28.7399
3.56862 28.6178
3.57977 28.4721
3.59092 28.4206
3.60207 28.397
3.61323 28.3958
3.62438 28.3607
3.63553 28.2964
3.64668 28.2339
3.65783 28.2127
3.66898 28.2669
3.68013 28.2587
3.69128 28.2504
3.70243 28.3384
3.71358 28.5093
3.72473 28.5641
3.73588 28.5556
3.74703 28.5527
3.75818 28.6106
3.76933 28.7023
3.78048 28.8381
3.79163 28.8721
3.80278 29.0143
3.81393 29.2829
3.82508 29.5467
3.83623 29.8945
3.84738 30.2705
3.85853 30.7045
3.86968 31.1795
3.88083 31.9283
3.89198 32.8633
3.90313 34.3813
3.91428 37.3757
3.92543 44.7975
3.93658 70.1086
3.94773 176.868
3.95888 565.478
3.97003 1173.12
3.98118 1050.58
3.99233 422.975
4.00348 131.906
4.01463 60.0872
4.02578 42.2153
4.03693 36.4434
4.04808 33.8719
4.05923 32.5451
4.07038 31.6472
4.08153 30.9362
4.09268 30.4297
4.10384 29.9265
4.11499 29.5837
4.12614 29.1722
4.13729 28.9472
4.14844 28.7279
4.15959 28.5643
4.17074 28.4131
4.18189 28.3038
4.19304 28.1551
4.20419 28.109
4.21534 28.0034
4.22649 27.9802
4.23764 27.8631
4.24879 27.8376
4.25994 27.7494
4.27109 27.7369
4.28224 27.7102
4.29339 27.6606
4.30454 27.7085
4.31569 27.6095
4.32684 27.6147
4.33799 27.596
4.34914 27.7054
4.36029 27.7002
4.37144 27.6782
4.38259 27.7964
4.39374 27.9493
4.40489 27.9635
4.41604 28.0481
4.42719 28.1544
4.43834 28.3794
4.44949 28.6396
4.46064 28.8379
4.47179 29.112
4.48294 29.2496
4.49409 29.5854
4.50524 30.0517
4.51639 30.8229
4.52754 32.2689
4.53869 35.6276
4.54984 46.7135
4.56099 92.0851
4.57214 263.987
4.58329 583.277
4.59444 601.859
4.6056 282.977
4.61675 98.3085
4.6279 48.3419
4.63905 36.3334
4.6502 32.7529
4.66135 31.2516
4.6725 30.6063
4.68365 30.3462
4.6948 30.0215
4.70595 29.5
4.7171 29.1883
4.72825 28.9222
4.7394 28.7082
4.75055 28.5712
4.7617 28.4703
4.77285 28.4404
4.784 28.4493
4.79515 28.3547
4.8063 28.3647
4.81745 28.3262
4.8286 28.3415
4.83975 28.2689
4.8509 28.287
4.86205 28.2941
4.8732 28.411
4.88435 28.5191
4.8955 28.5158
4.90665 28.702
4.9178 28.8233
4.92895 28.8676
4.9401 29.1023
4.95125 29.1941
4.9624 29.5269
4.97355 29.7844
4.9847 30.1878
4.99585 30.6034
5.007 31.0855
5.01815 31.5894
5.0293 32.2987
5.04045 33.1747
5.0516 34.5171
5.06275 36.8096
5.0739 41.2807
5.08505 53.1087
5.0962 96.5376
5.10736 279.063
5.11851 847.964
5.12966 1470.3
5.14081 1109.1
5.15196 415.607
5.16311 132.469
5.17426 62.0449
5.18541 44.1368
5.19656 38.1125
5.20771 35.4514
5.21886 33.8158
5.23001 32.6716
5.24116 31.9488
5.25231 31.2994
5.26346 30.6818
5.27461 30.2651
5.28576 29.7872
5.29691 29.5038
5.30806 29.24
5.31921 29.0473
5.33036 28.884
5.34151 28.7091
5.35266 28.5834
5.36381 28.5303
5.37496 28.4786
5.38611 28.4093
5.39726 28.3749
5.40841 28.4546
5.41956 28.4539
5.43071 28.4338
5.44186 28.456
5.45301 28.563
5.46416 28.6682
5.47531 28.7968
5.48646 28.9883
5.49761 29.1866
5.50876 29.5182
5.51991 29.8108
5.53106 30.3516
5.54221 31.02
5.55336 32.2673
5.56451 34.7713
5.57566 41.5411
5.58681 66.2299
5.59797 169.355
5.60912 476.07
5.62027 791.12
5.63142 596.004
5.64257 233.578
5.65372 83.3482
5.66487 45.5427
5.67602 35.9593
5.68717 32.7512
5.69832 31.2473
5.70947 30.3968
5.72062 29.7916
5.73177 29.3234
5.74292 28.9815
5.75407 28.5952
5.76522 28.4028
5.77637 28.1139
5.78752 28.0029
5.79867 27.8497
5.80982 27.736
5.82097 27.5869
5.83212 27.5116
5.84327 27.4965
5.85442 27.395
5.86557 27.3351
5.87672 27.2973
5.88787 27.218
5.89902 27.0897
5.91017 27.11
5.92132 27.0584
5.93247 27.024
5.94362 27.0256
5.95477 26.9813
5.96592 26.9712
5.97707 26.9651
5.98822 26.9991
5.99937 26.9463
6.01052 26.993
6.02167 26.9344
6.03282 26.9294
6.04397 26.9046
6.05512 26.9371
6.06627 26.9354
6.07742 26.9701
6.08857 26.9584
6.09973 27.0369
6.11088 27.0084
6.12203 27.0025
6.13318 26.9761
6.14433 27.0164
6.15548 27.0271
6.16663 27.0293
6.17778 27.0675
6.18893 27.0924
6.20008 27.1174
6.21123 27.1499
6.22238 27.1542
6.23353 27.2342
6.24468 27.2737
6.25583 27.2738
6.26698 27.2794
6.27813 27.3336
6.28928 27.3528
6.30043 27.4425
6.31158 27.493
6.32273 27.5524
6.33388 27.6839
6.34503 27.7439
6.35618 27.8849
6.36733 28.0043
6.37848 28.1526
6.38963 28.2677
6.40078 28.5235
6.41193 28.8804
6.42308 29.3338
6.43423 30.2993
6.44538 32.9149
6.45653 42.2421
6.46768 80.2896
6.47883 195.394
6.48998 326.942
6.50113 271.059
6.51228 125.679
6.52343 55.627
6.53458 36.5003
6.54573 31.7705
6.55688 30.2178
6.56803 29.5942
6.57918 29.3516
6.59033 29.1358
6.60149 29.0099
6.61264 28.638
6.62379 28.9289
6.63494 28.8522
6.64609 28.856
6.65724 28.9015
6.66839 28.875
6.67954 28.9466
6.69069 28.9699
6.70184 29.0985
6.71299 29.2421
6.72414 29.3275
6.73529 29.5678
6.74644 29.77
6.75759 30.0833
6.76874 30.4613
6.77989 30.88
6.79104 31.3802
6.80219 32.1646
6.81334 33.2434
6.82449 35.2627
6.83564 40.1871
6.84679 56.2729
6.85794 121.967
6.86909 355.583
6.88024 778.689
6.89139 852.768
6.90254 453.566
6.91369 162.588
6.92484 66.8035
6.93599 43.2339
6.94714 36.703
6.95829 34.2039
6.96944 32.9933
6.98059 32.28
6.99174 31.6118
7.00289 31.2195
7.01404 30.8956
7.02519 30.5789
7.03634 30.3974
7.04749 30.2188
7.05864 30.0395
7.06979 29.9843
7.08094 29.9879
7.0921 29.9064
7.10325 29.9705
7.1144 30.0663
7.12555 30.2366
7.1367 30.4379
7.14785 30.6336
7.159 30.9127
7.17015 31.2976
7.1813 31.9127
7.19245 32.9502
7.2036 35.1699
7.21475 41.5952
7.2259 66.1687
7.23705 163.501
7.2482 420.706
7.25935 643.332
7.2705 478.647
7.28165 202.366
7.2928 78.6335
7.30395 44.6518
7.3151 36.1708
7.32625 33.4389
7.3374 32.1924
7.34855 31.6238
7.3597 31.0118
7.37085 30.76
7.382 30.4259
7.39315 30.1744
7.4043 30.0181
7.41545 29.9072
7.4266 29.7397
7.43775 29.632
7.4489 29.6124
7.46005 29.5844
7.4712 29.632
7.48235 29.6271
7.4935 29.8269
7.50465 29.866
7.5158 30.0549
7.52695 30.3191
7.5381 30.7158
7.54925 31.4601
7.5604 33.146
7.57155 38.3491
7.5827 58.7231
7.59386 135.889
7.60501 313.67
7.61616 419.85
7.62731 285.787
7.63846 123.711
7.64961 55.9293
7.66076 37.5767
7.67191 32.9243
7.68306 31.3409
7.69421 30.5809
7.70536 30.1531
7.71651 29.8657
7.72766 29.5979
7.73881 29.3737
7.74996 29.2402
7.76111 29.08
7.77226 28.9553
7.78341 28.8937
7.79456 28.7294
7.80571 28.6869
7.81686 28.7193
7.82801 28.6561
7.83916 28.6469
7.85031 28.6305
7.86146 28.629
7.87261 28.663
7.88376 28.7391
7.89491 28.9157
7.90606 29.5106
7.91721 31.3694
7.92836 39.2786
7.93951 62.793
7.95066 92.344
7.96181 85.87
7.97296 55.0048
7.98411 36.6661
7.99526 30.763
8.00641 29.3529
8.01756 28.9016
8.02871 28.8325
8.03986 28.7594
8.05101 28.6798
8.06216 28.7029
8.07331 28.6928
8.08446 28.6512
8.09562 28.6916
8.10677 28.7656
8.11792 28.7701
8.12907 28.7866
8.14022 28.8882
8.15137 29.0024
8.16252 29.0766
8.17367 29.2038
8.18482 29.3263
8.19597 29.5774
8.20712 29.9475
8.21827 30.5441
8.22942 32.1391
8.24057 37.7086
8.25172 59.9782
8.26287 131.787
8.27402 243.122
8.28517 251.984
8.29632 147.405
8.30747 68.7021
8.31862 40.316
8.32977 33.0877
8.34092 31.1581
8.35207 30.4675
8.36322 30.1777
8.37437 29.9965
8.38552 29.9081
8.39667 29.8129
8.40782 29.7505
8.41897 29.7324
8.43012 29.7442
8.44127 29.8377
8.45242 29.9363
8.46357 30.0961
8.47472 30.2334
8.48587 30.3904
8.49702 30.6962
8.50817 31.152
8.51932 31.769
8.53047 32.9376
8.54162 35.8932
8.55277 45.9366
8.56392 86.4818
8.57507 220.137
8.58623 447.599
8.59738 496.848
8.60853 295.145
8.61968 122.869
8.63083 56.4171
8.64198 38.6655
8.65313 33.9697
8.66428 32.2808
8.67543 31.4529
8.68658 30.9546
8.69773 30.6075
8.70888 30.3501
8.72003 30.0966
8.73118 29.8657
8.74233 29.6984
8.75348 29.5034
8.76463 29.3655
8.77578 29.2775
8.78693 29.2585
8.79808 29.1813
8.80923 29.0599
8.82038 29.0283
8.83153 28.9866
8.84268 28.9502
8.85383 28.906
8.86498 28.8646
8.87613 28.8575
8.88728 28.8337
8.89843 28.8432
8.90958 28.7843
8.92073 28.8001
8.93188 28.7691
8.94303 28.769
8.95418 28.8042
8.96533 28.8425
8.97648 28.8428
8.98763 28.8298
8.99878 28.8263
9.00993 28.9094
9.02108 28.9267
9.03223 28.8917
9.04338 28.9154
9.05453 28.937
9.06568 29.0287
9.07683 29.0728
9.08799 29.1219
9.09914 29.1722
9.11029 29.3361
9.12144 29.4951
9.13259 29.8526
9.14374 30.9455
9.15489 35.1986
9.16604 50.4415
9.17719 84.0514
9.18834 106.714
9.19949 85.4708
9.21064 52.6759
9.22179 36.5572
9.23294 31.5698
9.24409 30.3263
9.25524 29.9596
9.26639 29.8577
9.27754 29.8156
9.28869 29.8723
9.29984 29.9058
9.31099 29.9656
9.32214 30.0573
9.33329 30.0637
9.34444 30.2545
9.35559 30.3928
9.36674 30.5918
9.37789 30.8528
9.38904 31.1731
9.40019 31.802
9.41134 32.8985
9.42249 35.9438
9.43364 46.8666
9.44479 89.6216
9.45594 211.453
9.46709 366.6
9.47824 354.923
9.48939 200.145
9.50054 89.5059
9.51169 47.6224
9.52284 36.3787
9.53399 33.4038
9.54514 32.2249
9.55629 31.7297
9.56744 31.4303
9.5786 31.2232
9.58975 31.1064
9.6009 31.0364
9.61205 30.9489
9.6232 30.8903
9.63435 30.9314
9.6455 31.0109
9.65665 31.1493
9.6678 31.3779
9.67895 31.8911
9.6901 33.0232
9.70125 36.4206
9.7124 49.7219
9.72355 98.7315
9.7347 213.854
9.74585 307.777
9.757 252.756
9.76815 132.563
9.7793 63.8766
9.79045 40.0563
9.8016 33.9009
9.81275 32.149
9.8239 31.422
9.83505 31.0626
9.8462 30.7977
9.85735 30.6188
9.8685 30.4836
9.87965 30.3126
9.8908 30.3023
9.90195 30.2492
9.9131 30.2028
9.92425 30.2118
9.9354 30.2204
9.94655 30.3456
9.9577 30.7727
9.96885 32.1107
9.98 37.1013
9.99115 55.5647
10.0023 99.1705
10.0135 136.202
10.0246 116.776
10.0358 70.7043
10.0469 43.5006
10.0581 33.7365
10.0692 31.193
10.0804 30.4547
10.0915 30.185
10.1027 30.1273
10.1138 30.021
10.125 30.0087
10.1361 30.0169
10.1473 29.9849
10.1584 29.9895
10.1696 30.0555
10.1807 30.0973
10.1919 30.2339
10.203 30.4861
10.2142 30.9082
10.2253 31.9754
10.2365 36.0263
10.2476 51.4064
10.2588 96.2177
10.2699 159.841
10.2811 167.808
10.2922 111.369
10.3034 61.3743
10.3145 39.5351
10.3257 33.082
10.3368 31.4889
10.348 30.9569
10.3591 30.7127
10.3703 30.6445
10.3814 30.5955
10.3926 30.5955
10.4037 30.6712
10.4149 30.7298
10.426 30.8429
10.4372 31.042
10.4483 31.3243
10.4595 31.7036
10.4706 32.6701
10.4818 35.3327
10.4929 45.1102
10.5041 82.1761
10.5152 180.782
10.5264 294.34
10.5375 282.962
10.5487 168.804
10.5598 82.1041
10.571 45.9324
10.5821 35.599
10.5933 32.8804
10.6044 31.9138
10.6156 31.4968
10.6267 31.2253
10.6379 31.0277
10.649 30.8959
10.6602 30.8303
10.6713 30.7053
10.6825 30.6636
10.6936 30.6195
10.7048 30.7729
10.7159 31.039
10.7271 31.8295
10.7382 34.8786
10.7494 46.6965
10.7605 82.7133
10.7717 138.951
10.7828 154.196
10.794 110.252
10.8051 63.2808
10.8163 40.4731
10.8274 33.1033
10.8386 31.1904
10.8497 30.5368
10.8609 30.2516
10.872 30.0553
10.8832 29.9277
10.8943 29.8009
10.9055 29.7011
10.9166 29.6801
10.9278 29.6453
10.9389 29.561
10.9501 29.4761
10.9612 29.4536
10.9724 29.4193
10.9835 29.3961
10.9947 29.3504
11.0058 29.2817
11.017 29.2901
11.0281 29.2768
11.0393 29.3089
11.0504 29.3019
11.0616 29.2856
11.0727 29.2845
11.0839 29.2879
11.095 29.3092
11.1062 29.3347
11.1173 29.2847
11.1285 29.3643
11.1396 29.4351
11.1508 29.4985
11.1619 29.5499
11.1731 29.5891
11.1842 29.6441
11.1954 29.7687
11.2065 30.1883
11.2177 31.5372
11.2288 36.6018
11.24 52.9304
11.2511 82.3555
11.2623 95.859
11.2734 76.629
11.2846 50.5345
11.2957 36.5595
11.3069 31.7057
11.318 30.365
11.3292 30.0431
11.3403 29.873
11.3515 29.8678
11.3626 29.8189
11.3738 29.8294
11.3849 29.9145
11.3961 29.8812
11.4072 29.9083
11.4184 30.0005
11.4295 30.2047
11.4407 30.6387
11.4518 32.1581
11.463 37.9223
11.4741 55.6173
11.4853 84.4101
11.4964 94.5631
11.5076 74.1133
11.5187 49.6096
11.5299 36.5417
11.541 32.0304
11.5522 30.9045
11.5633 30.6663
11.5745 30.5734
11.5856 30.61
11.5968 30.6536
11.6079 30.7263
11.6191 30.9112
11.6302 31.0507
11.6414 31.3427
11.6525 31.8011
11.6637 32.8932
11.6748 35.9493
11.686 47.5385
11.6971 88.2581
11.7083 183.527
11.7194 271.441
11.7306 245.85
11.7417 147.81
11.7529 76.1251
11.764 44.5907
11.7752 35.2299
11.7863 32.8929
11.7975 32.0531
11.8086 31.5887
11.8198 31.4221
11.8309 31.2147
11.8421 31.1246
11.8532 31.0892
11.8644 31.0766
11.8755 31.1183
11.8867 31.5231
11.8978 32.6516
11.909 37.0854
11.9201 53.1169
11.9313 92.9592
11.9424 134.495
11.9536 128.494
11.9647 86.7314
11.9759 53.2615
11.987 37.4543
11.9982 32.4392
12.0093 31.1931
12.0205 30.7156
12.0316 30.5036
12.0428 30.3299
12.0539 30.272
12.0651 30.1829
12.0762 30.1056
12.0874 29.9907
12.0985 30.0059
12.1097 29.9688
12.1208 29.9447
12.132 29.8647
12.1431 29.9332
12.1543 29.902
12.1654 29.9171
12.1766 29.8606
12.1877 29.9259
12.1989 29.8464
12.21 29.9798
12.2212 29.9701
12.2323 30.0349
12.2435 30.1323
12.2546 30.1979
12.2658 30.2807
12.2769 30.3826
12.2881 30.4914
12.2992 30.7364
12.3104 31.0623
12.3216 31.7203
12.3327 33.4705
12.3439 40.0123
12.355 63.1886
12.3662 123.126
12.3773 195.929
12.3885 200.722
12.3996 137.456
12.4108 77.8581
12.4219 46.2885
12.4331 35.2672
12.4442 32.3365
12.4554 31.4968
12.4665 31.1519
12.4777 30.9302
12.4888 30.7808
12.5 30.7107
12.5111 30.7028
12.5223 30.6321
12.5334 30.8226
12.5446 31.3271
12.5557 33.4536
12.5669 41.0968
12.578 61.5731
12.5892 87.6094
12.6003 91.5055
12.6115 70.3229
12.6226 48.3197
12.6338 36.3048
12.6449 31.8554
12.6561 30.7045
12.6672 30.3726
12.6784 30.1102
12.6895 30.0537
12.7007 29.9611
12.7118 29.8856
12.723 29.873
12.7341 29.768
12.7453 29.7757
12.7564 29.6991
12.7676 29.6543
12.7787 29.6997
12.7899 29.638
12.801 29.6804
12.8122 29.6152
12.8233 29.5984
12.8345 29.6584
12.8456 29.6809
12.8568 29.6282
12.8679 29.5955
12.8791 29.6878
12.8902 29.6835
12.9014 29.7726
12.9125 29.6885
12.9237 29.7832
12.9348 29.7905
12.946 29.8531
12.9571 30.1892
12.9683 31.0486
12.9794 34.1858
12.9906 43.1637
13.0017 56.7373
13.0129 61.9888
13.024 53.1574
13.0352 41.7921
13.0463 34.5027
13.0575 31.3916
13.0686 30.5024
13.0798 30.3342
13.0909 30.369
13.1021 30.3573
13.1132 30.3909
13.1244 30.4606
13.1355 30.6263
13.1467 30.8879
13.1578 31.6993
13.169 34.0812
13.1801 42.626
13.1913 68.6982
13.2024 115.127
13.2136 142.412
13.2247 120.055
13.2359 78.6046
13.247 49.9909
13.2582 36.723
13.2693 32.597
13.2805 31.6531
13.2916 31.1852
13.3028 31.0508
13.3139 31.042
13.3251 31.0464
13.3362 31.1296
13.3474 31.4238
13.3585 32.1184
13.3697 34.6116
13.3808 43.9838
13.392 71.2252
13.4031 115.427
13.4143 137.62
13.4254 112.915
13.4366 74.1624
13.4477 48.3368
13.4589 36.0936
13.47 32.4853
13.4812 31.4795
13.4923 31.1898
13.5035 30.9276
13.5146 30.9047
13.5258 30.9155
13.5369 31.0561
13.5481 31.3467
13.5592 32.0267
13.5704 35.362
13.5815 46.4432
13.5927 74.0482
13.6038 106.764
13.615 110.651
13.6261 84.0175
13.6373 56.4882
13.6484 40.1085
13.6596 33.3154
13.6707 31.4845
13.6819 30.8799
13.693 30.6839
13.7042 30.7102
13.7153 30.5654
13.7265 30.5461
13.7376 30.5564
13.7488 30.9033
13.7599 31.9674
13.7711 35.7944
13.7822 47.2783
13.7934 66.8057
13.8045 77.5559
13.8157 68.0487
13.8268 50.7875
13.838 38.7808
13.8491 32.847
13.8603 30.9669
13.8714 30.419
13.8826 30.3888
13.8937 30.1345
13.9049 30.2261
13.916 30.1493
13.9272 30.1985
13.9383 30.2587
13.9495 30.6395
13.9606 32.5147
13.9718 37.9713
13.9829 48.2944
13.9941 55.9131
14.0052 52.4347
14.0164 43.1079
14.0275 35.7813
14.0387 32.002
14.0498 30.5066
14.061 30.1773
14.0721 30.1958
14.0833 30.0644
14.0944 30.1674
14.1056 30.1533
14.1167 30.3442
14.1279 30.9157
14.139 32.5301
14.1502 38.4039
14.1613 56.0168
14.1725 87.3849
14.1836 107.44
14.1948 94.9808
14.2059 67.3426
14.2171 46.5969
14.2282 35.4937
14.2394 31.729
14.2505 30.4859
14.2617 30.2612
14.2728 29.9584
14.284 29.9079
14.2951 29.7731
14.3063 29.7192
14.3174 29.7149
14.3286 29.7924
14.3397 29.6093
14.3509 29.6109
14.362 29.5142
14.3732 29.5653
14.3843 29.5626
14.3955 29.5284
14.4066 29.5698
14.4178 29.536
14.4289 29.5014
14.4401 29.5806
14.4512 29.5545
14.4624 29.6499
14.4735 29.6014
14.4847 29.6571
14.4958 29.8564
14.507 30.369
14.5181 32.1175
14.5293 37.7396
14.5404 49.0623
14.5516 58.9817
14.5627 57.4615
14.5739 47.3934
14.585 38.2625
14.5962 32.9865
14.6073 30.8539
14.6185 30.3246
14.6296 30.2946
14.6408 30.2209
14.6519 30.2633
14.6631 30.5527
14.6742 30.8001
14.6854 32.0309
14.6965 35.9838
14.7077 49.3764
14.7188 82.4704
14.73 121.721
14.7411 128.788
14.7523 99.875
14.7634 66.9763
14.7746 45.566
14.7857 35.083
14.7969 31.8251
14.8081 30.7911
14.8192 30.7185
14.8304 30.2603
14.8415 30.2784
14.8527 30.3924
14.8638 30.6788
14.875 31.8224
14.8861 36.4313
14.8973 47.6008
14.9084 62.2237
14.9196 66.8959
14.9307 57.4093
14.9419 44.7805
14.953 36.3505
14.9642 31.7958
14.9753 30.4035
14.9865 29.9426
14.9976 29.8001
15.0088 29.6009
15.0199 29.7516
15.0311 29.8687
15.0422 30.0309
15.0534 30.6236
15.0645 33.024
15.0757 39.0525
15.0868 46.5526
15.098 48.7012
15.1091 43.3302
15.1203 36.9037
15.1314 32.6803
15.1426 30.5127
15.1537 29.6894
15.1649 29.5728
15.176 29.5641
15.1872 29.5592
15.1983 29.6953
15.2095 29.7055
15.2206 29.7495
15.2318 30.4406
15.2429 32.9825
15.2541 38.7149
15.2652 44.3337
15.2764 44.5105
15.2875 39.4812
15.2987 34.8362
15.3098 31.5449
15.321 30.2396
15.3321 29.722
15.3433 29.6473
15.3544 29.4426
15.3656 29.7647
15.3767 29.9743
15.3879 30.5562
15.399 31.8342
15.4102 37.141
15.4213 53.7466
15.4325 81.1654
15.4436 96.7829
15.4548 84.433
15.4659 61.533
15.4771 44.622
15.4882 35.2148
15.4994 31.0044
15.5105 30.3534
15.5217 29.9809
15.5328 29.6209
15.544 29.7197
15.5551 30.0115
15.5663 30.2116
15.5774 31.8533
15.5886 39.5984
15.5997 56.3459
15.6109 71.9265
15.622 70.52
15.6332 55.3854
15.6443 42.6795
15.6555 34.9978
15.6666 31.2436
15.6778 30.0145
15.6889 29.8496
15.7001 29.8479
15.7112 29.6468
15.7224 28.8802
15.7335 28.703
15.7447 28.7044
15.7558 28.5229
15.767 29.1709
15.7781 28.7672
15.7893 28.4043
15.8004 28.1827
15.8116 29.0271
15.8227 28.4112
15.8339 29.0286
15.845 28.5343
15.8562 26.6825
15.8673 29.1738